<?xml version="1.0" encoding="UTF-8"?>

<DocumentReference xmlns="http://hl7.org/fhir">
  <id value="example"/>
  <text>
    <status value="generated"/>
    <div xmlns="http://www.w3.org/1999/xhtml">
      <p>
        <b>Generated Narrative with Details</b>
      </p>
      <p>
        <b>contained</b>: , 
      </p>
      <p>
        <b>masterIdentifier</b>: urn:oid:1.3.6.1.4.1.21367.2005.3.7
      </p>
      <p>
        <b>subject</b>: 
        <a href="Patient/xcda">Generated Summary: MRN = 12345 (USUAL); Henry Levin ; MALE; birthDate: Sep 24, 1932; active</a>
      </p>
      <p>
        <b>type</b>: Outpatient Note 
        <span style="background: LightGoldenRodYellow ">(Details : {LOINC code &#39;34108-1&#39; = &#39;Outpatient Note&#39;, given as &#39;Outpatient Note&#39;})</span>
      </p>
      <p>
        <b>class</b>: History and Physical 
        <span style="background: LightGoldenRodYellow ">(Details : {http://ihe.net/xds/connectathon/classCodes code &#39;History and Physical&#39; = &#39;History and Physical&#39;, given as &#39;History and Physical&#39;})</span>
      </p>
      <p>
        <b>author</b>: Sherry Dopplemeyer ; john.doe@healthcare.example.org, Gerald Smitty ; john.doe@healthcare.example.org
      </p>
      <p>
        <b>created</b>: Dec 24, 2005 9:35:00 AM
      </p>
      <p>
        <b>indexed</b>: Dec 24, 2005 9:43:41 AM
      </p>
      <p>
        <b>status</b>: CURRENT
      </p>
      <p>
        <b>description</b>: Physical
      </p>
      <p>
        <b>confidentiality</b>: Clinical-Staff 
        <span style="background: LightGoldenRodYellow ">(Details : {http://ihe.net/xds/connectathon/confidentialityCodes code &#39;1.3.6.1.4.1.21367.2006.7.101&#39; = &#39;1.3.6.1.4.1.21367.2006.7.101&#39;, given as &#39;Clinical-Staff&#39;})</span>
      </p>
      <p>
        <b>content</b>: 
      </p>
      <blockquote>
        <p>
          <b>context</b>
        </p>
        <p>
          <b>event</b>: Arm 
          <span style="background: LightGoldenRodYellow ">(Details : {http://ihe.net/xds/connectathon/eventCodes code &#39;T-D8200&#39; = &#39;T-D8200&#39;, given as &#39;Arm&#39;})</span>
        </p>
        <p>
          <b>period</b>: Dec 23, 2004 8:00:00 AM --&gt; Dec 23, 2004 8:01:00 AM
        </p>
        <p>
          <b>facilityType</b>: Outpatient 
          <span style="background: LightGoldenRodYellow ">(Details : {http://www.ihe.net/xds/connectathon/healthcareFacilityTypeCodes code &#39;Outpatient&#39; = &#39;Outpatient&#39;, given as &#39;Outpatient&#39;})</span>
        </p>
      </blockquote>
    </div>
  </text>
  <contained>
    <Practitioner><!--   Many XDS systems do not trak any id for the author. When systems don't do this, 
    the only option is for the author information to be contained in the Document Reference   -->
      <id value="a1"/>
      <name>
        <family value="Dopplemeyer"/>
        <given value="Sherry"/>
      </name>
      <telecom>
        <system value="email"/>
        <value value="john.doe@healthcare.example.org"/>
      </telecom>
      <practitionerRole>
        <managingOrganization>
          <display value="Cleveland Clinic"/>
        </managingOrganization><!--  
      <organization>
        <display value="Berea Community"/>
      </organization>      
  -->
        <role>
          <text value="Primary Surgon"/>
        </role>
        <specialty>
          <text value="Orthopedic"/>
        </specialty>
      </practitionerRole>
    </Practitioner>
  </contained>
  <contained>
    <Practitioner>
      <id value="a2"/>
      <name>
        <family value="Smitty"/>
        <given value="Gerald"/>
      </name>
      <telecom>
        <system value="email"/>
        <value value="john.doe@healthcare.example.org"/>
      </telecom>
      <practitionerRole>
        <managingOrganization>
          <display value="Cleveland Clinic"/>
        </managingOrganization><!--  
      <organization>
        <display value="Parma Community"/>
      </organization>      
  -->
        <role>
          <text value="Attending"/>
        </role>
        <specialty>
          <text value="Orthopedic"/>
        </specialty>
      </practitionerRole>
    </Practitioner>
  </contained>
  <masterIdentifier>
    <system value="urn:ietf:rfc:3986"/>
    <value value="urn:oid:1.3.6.1.4.1.21367.2005.3.7"/>
  </masterIdentifier>
  <subject>
    <reference value="Patient/xcda"/>
  </subject>
  <type>
    <coding>
      <system value="http://loinc.org"/>
      <code value="34108-1"/>
      <display value="Outpatient Note"/>
    </coding>
  </type>
  <class>
    <coding>
      <system value="http://ihe.net/xds/connectathon/classCodes"/>
      <code value="History and Physical"/>
      <display value="History and Physical"/>
    </coding>
  </class>
  <author>
    <reference value="#a1"/>
  </author>
  <author>
    <reference value="#a2"/>
  </author>
  <created value="2005-12-24T09:35:00+11:00"/>
  <indexed value="2005-12-24T09:43:41+11:00"/>
  <status value="current"/>
  <description value="Physical"/>
  <confidentiality>
    <coding>
      <system value="http://ihe.net/xds/connectathon/confidentialityCodes"/>
      <code value="1.3.6.1.4.1.21367.2006.7.101"/>
      <display value="Clinical-Staff"/>
    </coding>
  </confidentiality>
  <content>
    <contentType value="application/hl7-v3+xml"/>
    <language value="en-US"/>
    <url value="http://example.org/xds/mhd/Binary/07a6483f-732b-461e-86b6-edb665c45510"/>
    <size value="3654"/>
    <hash value="2jmj7l5rSw0yVb/vlWAYkK/YBwk="/>
  </content>
  <context>
    <event>
      <coding>
        <system value="http://ihe.net/xds/connectathon/eventCodes"/>
        <code value="T-D8200"/>
        <display value="Arm"/>
      </coding>
    </event>
    <period>
      <start value="2004-12-23T08:00:00+11:00"/>
      <end value="2004-12-23T08:01:00+11:00"/>
    </period>
    <facilityType>
      <coding>
        <system value="http://www.ihe.net/xds/connectathon/healthcareFacilityTypeCodes"/>
        <code value="Outpatient"/>
        <display value="Outpatient"/>
      </coding>
    </facilityType>
  </context>
</DocumentReference>